File: XRD_source_data/Hematite_Theta_2-Theta.asc
*TYPE		=  Raw
*CLASS		=  ASCII CLASS
*SAMPLE		=  Hematite
*COMMENT	=
*FNAME		=  Hematite_Theta_2-Theta.asc
*DATE		=  07-Mar-24 14:38

*GROUP_COUNT	=  1
*GONIO		=  MiniFlex 300/600, 150
*ATTACHMENT	=  ASC-6
*ASC		=  0, 0, 0.000000, 0.000000
*FILTER		=  None
*C_MONOCHRO	=  None, 0.000000
*SLIT_NAME	=  0, IHS
*SLIT_NAME	=  1, DS +
*SLIT_NAME	=  2, SS
*SLIT_NAME	=  3, RS
*COUNTER	=  SC-70, 0
*POS_FORMAT	=  0
*SCAN_AXIS	=  2theta/theta
*MEAS_MODE	=  Continuous Scanning
*TARGET		=  29
*XRAY_CHAR	=  K-ALPHA
*WAVE_LENGTH1	=  1.54059
*WAVE_LENGTH2	=  1.54441
*THICKNESS	=  0, 0.000000
*MU		=  0, 0.000000
*SCAN_MODE	=  2theta/theta
*SPEED_DIM	=  sec./step
*XUNIT		=  deg.
*YUNIT		=  counts
*SCALE_MODE	=  1
*REP_COUNT	=  0
*SE_COUNT	=  0
*STD_MATERIAL	=  Unknown, Unknown, 0.000000, 0.000000, 0.000000, 0.000000, 0.000000, 0.000000
*LATT_CONS	=  0, Unknown, Unknown, 0.000000, 0.000000, 0.000000, 0.000000, 0.000000, 0.000000
*SEC_COUNT	=  1
*TSPEC_SIZE	=  0
*EXTRA_SIZE	=  0
*MEMO		=

*BEGIN
*GROUP		=  0
*START		=  10
*STOP		=  90
*STEP		=  0.02
*OFFSET		=  0.000000
*SPEED		=  0.6
*SLIT_SPEC	=  0, 10.0mm, 10, 0.000000
*SLIT_SPEC	=  1, 1.250deg, 1.25, 0.000000
*SLIT_SPEC	=  2, 13.0mm(Open), 13, 0.000000
*SLIT_SPEC	=  3, 13.0mm, 13, 0.000000
*KV		=  40
*MA		=  15
*LOW		=  0.000000
*HIGH		=  0.000000
*CTEMPER	=  0, 0.000000
*CTEMPER	=  1, 0.000000
*CTEMPER	=  2, 0.000000
*PAREX		=  0, 0.000000
*PAREX		=  1, 0.000000
*PAREX		=  2, 0.000000
*PAREX		=  3, 0.000000
*PAREX		=  4, 0.000000
*PAREX		=  5, 0.000000
*PAREX		=  6, 0.000000
*PAREX		=  7, 0.000000
*PAREX		=  8, 0.000000
*PAREX		=  9, 0.000000
*PAREX		=  10, 0.000000
*PAREX		=  11, 0.000000
*PAREX		=  12, 0.000000
*PAREX		=  13, 0.000000
*PAREX		=  14, 0.000000
*PAREX		=  15, 0.000000
*FULL_SCALE	=  699.6
*INDEX		=  0, 0, 0
*COUNT		=  4001
501, 489, 467, 453
467, 459, 441, 511
532, 507, 467, 543
464, 457, 467, 472
447, 477, 460, 448
464, 470, 453, 420
439, 504, 474, 438
391, 442, 460, 440
413, 452, 415, 430
495, 428, 396, 475
422, 413, 490, 429
447, 413, 491, 484
432, 453, 415, 480
452, 473, 424, 438
469, 438, 456, 442
434, 457, 437, 432
426, 453, 453, 427
411, 407, 454, 416
402, 395, 437, 454
438, 384, 409, 439
434, 425, 440, 433
443, 390, 402, 419
385, 387, 409, 407
373, 432, 434, 418
408, 390, 430, 425
404, 431, 398, 413
404, 348, 427, 421
392, 369, 405, 461
463, 401, 433, 363
399, 412, 378, 390
465, 384, 424, 447
361, 397, 430, 412
447, 422, 356, 403
376, 424, 367, 358
431, 418, 405, 369
428, 433, 367, 388
420, 365, 405, 360
362, 382, 361, 447
379, 390, 428, 384
369, 359, 371, 403
347, 381, 413, 361
375, 363, 392, 358
366, 345, 383, 382
365, 388, 366, 387
390, 368, 425, 379
352, 394, 342, 333
391, 366, 386, 360
320, 371, 380, 362
369, 347, 332, 365
354, 379, 365, 379
336, 379, 392, 383
340, 386, 346, 344
383, 362, 370, 370
364, 369, 383, 319
301, 333, 336, 362
346, 352, 369, 366
358, 389, 329, 357
352, 372, 365, 343
367, 341, 355, 368
348, 324, 334, 376
348, 339, 387, 316
375, 328, 365, 378
355, 336, 317, 317
336, 352, 345, 348
331, 350, 288, 354
342, 360, 338, 341
368, 332, 326, 377
360, 354, 348, 359
357, 329, 350, 346
323, 324, 350, 325
295, 323, 332, 349
379, 307, 322, 319
290, 320, 354, 328
288, 334, 295, 336
301, 335, 344, 355
336, 350, 319, 334
324, 342, 321, 333
292, 328, 305, 312
343, 267, 319, 319
318, 281, 323, 301
316, 298, 309, 333
350, 353, 295, 290
304, 314, 311, 321
285, 331, 322, 321
306, 329, 307, 301
328, 293, 295, 303
271, 327, 305, 277
330, 266, 312, 325
312, 288, 302, 319
314, 339, 312, 298
293, 298, 305, 294
309, 275, 318, 297
293, 313, 296, 287
288, 328, 298, 274
319, 262, 282, 308
324, 298, 275, 281
318, 277, 327, 316
283, 311, 290, 290
320, 301, 289, 291
304, 268, 298, 268
310, 311, 328, 301
294, 266, 312, 287
279, 305, 301, 289
265, 293, 319, 271
329, 258, 306, 288
294, 279, 333, 267
244, 291, 306, 273
342, 292, 288, 295
302, 293, 270, 281
276, 311, 302, 307
302, 279, 321, 299
303, 273, 278, 272
279, 279, 270, 282
266, 269, 253, 282
276, 288, 257, 285
266, 306, 309, 267
293, 276, 284, 264
269, 279, 282, 279
278, 279, 253, 265
273, 243, 286, 286
290, 288, 280, 245
307, 304, 275, 301
268, 287, 265, 261
272, 267, 271, 304
264, 312, 268, 258
259, 268, 233, 264
301, 277, 292, 268
271, 265, 263, 246
278, 298, 235, 277
279, 256, 292, 282
291, 251, 275, 298
272, 287, 311, 265
288, 273, 259, 280
316, 265, 282, 253
248, 289, 269, 279
266, 278, 295, 305
273, 266, 263, 264
273, 288, 288, 261
294, 276, 274, 286
284, 269, 269, 277
255, 281, 290, 273
267, 282, 295, 268
288, 264, 265, 274
262, 280, 306, 260
297, 286, 277, 299
285, 294, 280, 281
267, 304, 306, 273
281, 272, 280, 280
260, 271, 271, 285
264, 250, 265, 277
304, 255, 270, 270
281, 298, 281, 263
282, 260, 239, 286
247, 280, 269, 288
285, 290, 247, 298
251, 262, 248, 286
284, 269, 295, 292
284, 238, 288, 297
295, 305, 263, 301
273, 282, 253, 315
280, 272, 250, 277
297, 296, 251, 280
258, 245, 265, 296
286, 247, 245, 249
272, 256, 277, 269
262, 288, 260, 293
265, 267, 251, 282
330, 304, 260, 297
290, 272, 244, 303
284, 259, 280, 262
281, 306, 252, 279
260, 288, 264, 296
268, 243, 297, 287
281, 299, 291, 273
296, 286, 301, 316
314, 316, 286, 325
364, 368, 374, 324
370, 350, 336, 330
303, 322, 303, 286
323, 284, 296, 275
289, 324, 338, 275
281, 252, 302, 276
264, 284, 311, 268
295, 275, 258, 292
254, 253, 267, 285
263, 293, 257, 314
279, 271, 250, 270
263, 268, 257, 272
287, 260, 260, 278
294, 258, 270, 286
306, 263, 270, 270
268, 309, 284, 273
325, 275, 268, 261
301, 261, 277, 276
259, 283, 290, 266
254, 304, 257, 302
277, 314, 282, 290
268, 269, 265, 286
283, 297, 299, 280
277, 247, 287, 278
265, 281, 270, 292
246, 296, 253, 291
297, 244, 284, 288
264, 261, 269, 231
313, 278, 267, 297
276, 273, 254, 292
269, 285, 277, 316
318, 315, 291, 325
301, 308, 310, 293
289, 280, 265, 286
258, 278, 314, 288
269, 264, 260, 260
290, 246, 273, 246
292, 293, 283, 277
267, 276, 288, 272
303, 295, 251, 295
261, 250, 280, 296
281, 293, 248, 263
246, 263, 290, 303
285, 251, 240, 293
259, 284, 301, 289
289, 244, 297, 293
278, 259, 265, 274
295, 288, 266, 245
278, 281, 282, 274
276, 287, 299, 269
279, 259, 262, 315
280, 267, 268, 258
258, 277, 274, 306
278, 276, 258, 285
266, 254, 300, 284
251, 279, 271, 272
259, 292, 297, 276
274, 266, 260, 282
259, 270, 237, 259
269, 285, 297, 300
262, 289, 276, 280
275, 278, 248, 287
292, 263, 266, 267
270, 260, 287, 291
268, 269, 286, 254
291, 265, 284, 236
292, 278, 303, 258
262, 273, 286, 279
285, 283, 274, 271
278, 273, 273, 288
279, 276, 280, 265
284, 297, 295, 300
295, 282, 267, 278
277, 292, 248, 276
301, 268, 280, 278
294, 284, 298, 281
290, 261, 290, 268
269, 265, 286, 271
293, 307, 257, 272
283, 264, 296, 269
308, 259, 277, 263
274, 285, 301, 264
292, 291, 272, 303
322, 324, 283, 325
315, 322, 363, 334
394, 320, 372, 363
326, 347, 335, 335
313, 321, 287, 278
287, 283, 272, 292
272, 295, 288, 295
294, 273, 271, 277
245, 293, 282, 274
260, 289, 294, 275
278, 289, 287, 252
253, 252, 284, 258
290, 255, 287, 281
286, 272, 252, 280
275, 296, 281, 291
294, 258, 286, 273
253, 278, 286, 318
288, 260, 279, 272
293, 286, 308, 256
292, 303, 270, 283
296, 281, 276, 291
291, 292, 291, 283
274, 322, 297, 293
318, 289, 288, 302
283, 300, 275, 291
289, 316, 285, 282
313, 324, 349, 296
344, 349, 373, 371
338, 424, 388, 411
469, 467, 573, 527
582, 544, 583, 511
544, 501, 455, 477
449, 380, 360, 339
343, 334, 326, 327
344, 301, 313, 301
274, 290, 317, 313
300, 303, 297, 259
286, 294, 286, 315
310, 289, 276, 302
271, 285, 265, 276
280, 249, 280, 243
298, 298, 264, 289
303, 250, 275, 277
274, 276, 278, 267
269, 285, 260, 276
268, 279, 272, 281
295, 289, 273, 274
279, 273, 290, 289
312, 282, 287, 258
275, 273, 297, 249
249, 268, 271, 262
287, 273, 248, 297
289, 259, 274, 270
276, 258, 287, 279
232, 281, 293, 284
296, 301, 284, 298
324, 279, 304, 284
313, 292, 295, 325
276, 318, 275, 321
308, 300, 337, 351
425, 389, 409, 394
429, 396, 402, 388
387, 366, 352, 349
328, 307, 280, 296
301, 277, 279, 280
286, 279, 270, 285
292, 283, 276, 252
292, 288, 278, 280
265, 274, 271, 284
317, 268, 274, 283
266, 249, 297, 292
289, 250, 321, 291
287, 296, 258, 260
263, 270, 277, 232
312, 244, 288, 263
291, 278, 242, 290
307, 283, 263, 261
259, 252, 299, 249
250, 293, 279, 270
306, 277, 287, 269
287, 289, 246, 294
274, 289, 274, 295
286, 286, 262, 262
266, 256, 268, 285
272, 272, 272, 262
266, 273, 278, 254
272, 250, 288, 291
290, 272, 284, 300
278, 281, 272, 301
264, 302, 284, 286
308, 288, 272, 304
290, 260, 292, 249
267, 262, 277, 275
274, 275, 277, 300
273, 302, 291, 280
260, 284, 283, 250
273, 300, 266, 255
279, 270, 285, 284
285, 278, 249, 277
286, 265, 282, 281
322, 265, 279, 271
285, 288, 267, 259
276, 270, 266, 269
288, 316, 256, 313
282, 297, 278, 291
282, 271, 291, 266
309, 290, 293, 288
298, 259, 294, 267
322, 278, 303, 313
257, 290, 259, 269
275, 284, 266, 272
304, 284, 295, 282
303, 309, 248, 259
292, 260, 267, 306
321, 264, 239, 260
260, 287, 275, 319
224, 284, 238, 278
284, 283, 272, 262
311, 300, 290, 293
292, 275, 315, 274
275, 291, 273, 272
294, 278, 281, 268
258, 249, 302, 267
306, 293, 263, 297
290, 278, 311, 322
278, 303, 343, 306
346, 312, 325, 335
345, 324, 333, 312
318, 307, 301, 288
276, 314, 330, 298
302, 294, 297, 271
327, 279, 276, 320
262, 285, 263, 274
280, 271, 286, 278
274, 294, 299, 303
274, 282, 265, 271
297, 275, 293, 256
262, 266, 272, 282
268, 259, 287, 255
306, 260, 283, 254
293, 319, 279, 256
279, 290, 298, 293
284, 294, 292, 269
273, 288, 293, 304
283, 294, 287, 261
264, 299, 256, 285
292, 277, 304, 251
284, 274, 280, 252
275, 308, 305, 309
278, 275, 272, 276
284, 272, 291, 282
265, 279, 288, 263
276, 280, 281, 282
289, 271, 262, 288
262, 298, 278, 287
289, 294, 258, 289
268, 281, 283, 279
293, 268, 269, 260
275, 290, 275, 277
268, 272, 272, 299
265, 272, 291, 276
266, 278, 285, 297
235, 267, 281, 268
268, 291, 281, 280
294, 256, 279, 315
289, 293, 274, 275
273, 279, 277, 296
262, 286, 276, 270
285, 256, 261, 287
248, 245, 287, 284
293, 291, 276, 258
299, 307, 295, 289
282, 277, 288, 273
280, 274, 275, 305
270, 263, 291, 259
282, 276, 294, 246
276, 276, 279, 297
283, 271, 282, 292
266, 259, 265, 274
284, 286, 275, 241
258, 278, 250, 285
241, 284, 280, 266
263, 275, 270, 270
292, 280, 285, 281
266, 282, 263, 284
282, 269, 266, 283
252, 290, 242, 302
270, 260, 256, 275
287, 273, 247, 291
277, 279, 254, 328
284, 289, 286, 292
289, 286, 257, 286
270, 284, 272, 272
256, 249, 287, 280
291, 293, 273, 254
259, 294, 265, 279
288, 283, 274, 305
272, 254, 334, 290
293, 284, 286, 257
271, 263, 260, 301
315, 292, 277, 291
274, 268, 284, 265
278, 270, 275, 298
284, 288, 269, 292
281, 287, 257, 295
262, 277, 284, 283
271, 264, 250, 266
272, 267, 260, 292
289, 249, 251, 287
273, 267, 289, 261
275, 284, 271, 310
297, 299, 333, 304
324, 258, 283, 265
265, 272, 267, 262
262, 276, 265, 265
309, 288, 259, 289
263, 313, 275, 266
291, 266, 264, 288
280, 270, 296, 258
264, 292, 288, 305
271, 282, 291, 271
310, 305, 293, 285
289, 271, 305, 290
302, 269, 267, 286
255, 279, 292, 274
298, 260, 287, 266
296, 277, 289, 306
249, 291, 288, 274
274, 272, 296, 295
280, 259, 295, 296
300, 289, 284, 278
295, 300, 302, 324
313, 319, 314, 322
349, 368, 321, 333
358, 366, 316, 367
335, 346, 314, 335
324, 295, 297, 294
316, 287, 307, 310
266, 272, 291, 258
289, 287, 253, 305
282, 297, 287, 280
275, 265, 305, 262
277, 267, 286, 267
290, 295, 297, 268
275, 275, 310, 281
262, 269, 278, 296
281, 300, 304, 282
286, 304, 298, 301
281, 318, 275, 299
293, 281, 291, 287
298, 263, 281, 284
300, 282, 268, 250
281, 272, 284, 253
301, 302, 283, 260
309, 284, 302, 283
319, 265, 275, 248
280, 280, 290, 290
305, 272, 271, 294
276, 285, 312, 266
286, 286, 275, 261
271, 300, 286, 261
265, 289, 283, 296
307, 277, 260, 276
284, 283, 298, 287
288, 277, 291, 291
269, 247, 277, 275
299, 255, 290, 304
282, 279, 283, 270
304, 268, 297, 282
261, 301, 294, 268
287, 289, 266, 277
279, 283, 273, 271
315, 287, 303, 281
292, 271, 285, 257
270, 267, 287, 246
258, 309, 276, 258
305, 302, 241, 302
293, 293, 294, 282
309, 301, 272, 284
268, 289, 282, 282
290, 290, 266, 271
302, 270, 267, 290
280, 288, 289, 315
307, 274, 275, 254
291, 295, 277, 285
286, 287, 276, 285
304, 274, 288, 294
305, 288, 311, 270
299, 329, 290, 311
309, 324, 356, 362
360, 346, 351, 398
384, 366, 347, 405
406, 369, 386, 339
355, 358, 319, 333
343, 344, 311, 284
287, 315, 323, 306
304, 296, 318, 290
311, 278, 279, 279
297, 274, 321, 273
283, 276, 287, 275
282, 302, 254, 292
287, 311, 273, 308
271, 275, 303, 270
303, 294, 253, 264
264, 302, 284, 309
288, 272, 295, 273
277, 277, 262, 256
306, 301, 294, 267
296, 242, 275, 286
277, 310, 258, 290
252, 301, 269, 248
244, 331, 285, 276
271, 328, 295, 282
261, 259, 289, 263
303, 264, 279, 279
300, 280, 270, 282
300, 276, 265, 286
287, 280, 277, 282
293, 302, 298, 267
289, 319, 262, 293
264, 271, 289, 254
286, 302, 283, 276
253, 272, 251, 261
285, 275, 268, 275
291, 304, 268, 275
305, 253, 280, 250
286, 268, 285, 264
318, 297, 270, 290
302, 286, 287, 297
258, 282, 262, 276
295, 291, 298, 252
257, 277, 276, 272
287, 281, 286, 286
310, 305, 308, 257
307, 299, 294, 293
301, 318, 279, 350
289, 267, 325, 286
299, 275, 304, 322
299, 293, 286, 271
264, 285, 280, 250
260, 275, 263, 317
290, 287, 277, 253
264, 251, 292, 283
263, 267, 290, 275
263, 275, 258, 281
284, 279, 277, 256
290, 264, 280, 254
279, 285, 281, 282
262, 278, 284, 263
273, 288, 273, 296
300, 284, 309, 276
282, 275, 255, 253
294, 285, 273, 308
254, 252, 285, 280
250, 285, 279, 279
285, 266, 248, 303
275, 275, 292, 285
253, 290, 261, 303
248, 271, 264, 258
281, 283, 302, 268
277, 302, 259, 287
273, 284, 275, 258
279, 292, 272, 271
264, 253, 290, 261
292, 274, 313, 285
285, 285, 285, 279
248, 295, 273, 292
282, 289, 289, 235
263, 289, 290, 284
290, 285, 269, 305
254, 301, 270, 245
279, 288, 280, 259
239, 285, 304, 282
257, 261, 280, 246
266, 262, 271, 263
257, 271, 281, 290
294, 259, 254, 253
298, 275, 303, 284
264, 266, 285, 253
318, 274, 257, 282
284, 293, 261, 298
295, 274, 254, 291
276, 233, 285, 304
272, 278, 284, 266
276, 258, 298, 291
245, 265, 274, 282
288, 267, 264, 249
303, 294, 265, 296
272, 264, 292, 259
300, 286, 304, 296
283, 275, 261, 297
279, 306, 299, 300
322, 279, 284, 295
281, 284, 338, 275
303, 315, 341, 307
330, 361, 299, 326
331, 342, 328, 327
318, 322, 339, 327
298, 316, 327, 296
284, 284, 327, 289
296, 284, 280, 272
288, 272, 267, 306
261, 256, 285, 289
303, 299, 284, 313
285, 278, 237, 288
266, 277, 267, 277
284, 306, 277, 267
277, 291, 282, 295
272, 291, 267, 277
274, 288, 287, 278
289, 274, 255, 265
279, 286, 274, 265
286, 257, 315, 248
286, 301, 291, 296
330, 322, 285, 302
315, 334, 306, 334
286, 327, 313, 294
333, 311, 303, 307
305, 304, 310, 298
299, 319, 272, 280
264, 268, 282, 267
289, 297, 286, 272
265, 279, 282, 281
274, 255, 262, 244
282, 275, 293, 269
256, 258, 314, 308
259, 261, 308, 271
278, 273, 286, 263
260, 271, 263, 261
269, 254, 292, 264
277, 291, 264, 306
300, 276, 273, 314
287, 292, 270, 278
264, 275, 275, 271
296, 270, 285, 269
271, 289, 287, 277
287, 264, 288, 306
243, 302, 278, 282
281, 272, 284, 294
253, 278, 275, 257
277, 249, 304, 268
309, 294, 292, 273
256, 288, 252, 280
246, 259, 295, 283
268, 261, 293, 264
282, 268, 274, 270
212, 274, 295, 293
315, 247, 252, 263
298, 274, 247, 302
301, 296, 293, 251
280, 257, 276, 273
248, 294, 256, 247
294, 265, 256, 294
259, 270, 281, 301
297, 258, 272, 272
290, 290, 298, 269
252, 306, 286, 283
279, 264, 276, 284
295, 271, 284, 317
251, 312, 285, 253
295, 290, 292, 319
294, 264, 263, 312
272, 293, 272, 285
268, 282, 279, 265
288, 256, 294, 264
283, 243, 274, 252
271, 299, 255, 257
292, 296, 300, 273
289, 276, 284, 300
301, 271, 274, 286
275, 288, 282, 285
282, 272, 285, 276
250, 268, 284, 264
266, 270, 272, 274
276, 250, 270, 309
253, 294, 274, 263
228, 260, 297, 290
303, 274, 290, 275
268, 282, 260, 283
302, 292, 274, 280
253, 290, 292, 284
273, 285, 273, 296
292, 238, 316, 275
295, 323, 327, 264
286, 255, 262, 279
281, 286, 269, 287
294, 271, 240, 309
284, 293, 282, 267
284, 307, 294, 288
331, 295, 285, 269
284, 280, 298, 245
293, 250, 299, 290
280, 318, 291, 259
303, 258, 263, 319
267, 311, 298, 304
241, 312, 296, 295
284, 267, 291, 270
258, 293, 278, 296
281, 282, 258, 266
297, 247, 291, 293
263, 282, 276, 306
243, 284, 302, 271
309, 290, 277, 263
268, 281, 264, 287
300, 251, 274, 292
284, 270, 265, 289
294, 288, 282, 279
266, 264, 271, 275
260, 253, 281, 273
286, 270, 249, 249
272, 260, 288, 272
286, 279, 270, 280
265, 328, 267, 325
285, 298, 275, 308
309, 297, 297, 328
285, 281, 277, 312
311, 315, 319, 271
293, 297, 298, 303
276, 302, 264, 301
271, 305, 313, 274
283, 292, 297, 304
256, 297, 271, 282
279, 259, 276, 285
312, 280, 270, 287
282, 276, 289, 318
295, 248, 293, 302
258, 276, 267, 304
287, 288, 266, 305
272, 267, 278, 281
303, 278, 261, 258
285, 286, 275, 276
263, 262, 276, 266
275, 295, 249, 293
284, 275, 281, 244
241, 232, 302, 268
298, 282, 276, 269
279, 280, 277, 285
259, 262, 284, 294
274, 258, 295, 270
267, 296, 282, 278
288, 309, 284, 254
267, 267, 276, 297
281, 265, 260, 275
290, 289, 282, 299
294, 285, 277, 301
244, 268, 300, 282
285, 272, 263, 279
303, 304, 300, 296
295, 276, 278, 272
280, 289, 287, 286
292, 250, 267, 261
286, 297, 311, 294
275, 292, 290, 269
270, 270, 273, 281
288, 298, 326, 291
269, 282, 278, 264
279, 282, 319, 270
256, 297, 299, 297
277, 285, 289, 302
269, 300, 296, 272
263, 287, 282, 267
282, 245, 300, 278
262, 285, 277, 271
296, 270, 269, 255
262, 285, 300, 296
271, 281, 282, 278
273, 263, 283, 261
289, 288, 259, 267
305, 281, 259, 299
276, 272, 268, 288
287, 240, 265, 296
281, 282, 279, 302
296, 260, 283, 260
301, 281, 278, 251
276, 279, 280, 257
289, 310, 287, 280
260, 250, 283, 299
297, 285, 290, 262
271, 300, 254, 285
277, 266, 292, 295
298, 291, 310, 294
280, 269, 291, 266
256, 279, 265, 278
288, 315, 265, 260
286, 285, 263, 261
295, 290, 242, 272
254, 293, 278, 303
284, 300, 271, 266
307, 282, 277, 270
264, 275, 255, 295
266, 307, 283, 273
297, 237, 287, 232
283, 282, 278, 254
287, 266, 271, 295
272, 259, 263, 273
280, 276, 277, 299
283, 279, 298, 278
282, 268, 269, 314
290, 262, 317, 303
293, 286, 265, 278
261, 287, 275, 278
267, 278, 274, 259
308, 288, 275, 280
251, 306, 270, 288
290, 290, 275, 266
288, 274, 249, 285
258, 258, 302, 253
272, 233, 275, 273
249, 287, 260, 263
276, 277, 274, 280
302, 255, 290, 251
288, 310, 299, 294
260, 292, 264, 272
306, 249, 284, 307
256, 248, 266, 294
286, 274, 266, 326
276, 284, 284, 269
269, 276, 279, 286
270, 257, 296, 272
308, 254, 315, 284
261, 292, 287, 285
298, 289, 328, 273
251, 244, 278, 278
293, 304, 265, 273
287, 287, 281, 285
270, 276, 265, 283
303, 271, 308, 278
279, 260, 303, 245
269, 291, 307, 271
283, 287, 303, 282
277, 277, 278, 298
258, 257, 297, 313
273, 270, 264, 254
297, 263, 313, 307
277, 291, 282, 284
278, 266, 265, 295
272, 260, 279, 271
260, 270, 275, 261
286, 283, 291, 299
241, 285, 276, 279
299, 251, 285, 248
277, 300, 261, 281
285, 281, 264, 284
313, 276, 289, 283
282, 283, 247, 270
257, 266, 296, 236
291, 297, 284, 263
296, 296, 271, 268
262, 268, 275, 271
278, 272, 270, 255
273, 280, 312, 296
278, 312, 252, 301
294, 270, 304, 276
267, 299, 278, 304
288, 291, 297, 267
290, 261, 265, 278
264, 261, 276, 256
307, 294, 264, 247
286, 277, 296, 270
294, 271, 290, 255
258, 291, 263, 299
287, 277, 291, 281
289, 271, 330, 250
262, 278, 245, 274
283, 299, 276, 325
264, 290, 306, 259
318, 274, 259, 292
243, 264, 318, 275
319, 275, 272, 293
271, 264, 288, 309
280, 245, 266, 280
291, 260, 266, 278
324, 272, 260, 258
299, 269, 277, 272
317, 276, 270, 280
277, 257, 253, 270
288, 316, 288, 283
327, 261, 257, 274
273, 276, 291, 284
271, 333, 285, 267
284, 282, 262, 292
280, 306, 292, 273
282, 283, 294, 266
273, 279, 280, 266
284, 281, 278, 265
264, 265, 241, 270
247, 289, 283, 277
273, 263, 276, 278
266, 295, 257, 249
303, 291, 248, 285
242, 270, 230, 273
274, 274, 262, 276
271, 253, 270, 252
288, 277, 289, 272
276, 260, 285, 261
249, 272, 279, 293
255, 265, 258, 297
305, 286, 256, 277
318, 277, 299, 273
294, 259, 273, 272
285, 268, 258, 271
267, 277, 282, 248
277, 311, 271, 283
272, 259, 291, 268
274, 291, 276, 282
283, 275, 269, 252
269, 272, 275, 269
265, 270, 264, 249
272, 229, 283, 297
269, 264, 265, 246
264, 304, 289, 259
256, 292, 291, 281
293, 275, 294, 253
245, 303, 282, 270
276, 299, 292, 278
250, 267, 282, 279
256, 255, 274, 299
265, 274, 296, 267
265, 303, 272, 275
272, 273, 277, 298
295, 283, 266, 309
255, 297, 297, 291
303, 266, 287, 260
312, 322, 298, 271
318, 324, 281, 283
268, 277, 286, 250
293, 266, 281, 261
302, 282, 258, 281
258, 260, 278, 264
270, 283, 267, 281
259, 257, 294, 303
270, 259, 279, 265
269, 290, 278, 294
276, 259, 263, 287
262, 304, 274, 262
274, 265, 267, 240
279, 308, 287, 269
275, 251, 259, 269
271, 275, 236, 259
304, 288, 286, 261
263, 270, 294, 249
293
*END

*EOF