File: XRD_source_data/Magnetite_Theta_2-Theta.asc
*TYPE		=  Raw
*CLASS		=  ASCII CLASS
*SAMPLE		=  Magnetite
*COMMENT	=
*FNAME		=  Magnetite_Theta_2-Theta.asc
*DATE		=  07-Mar-24 15:59

*GROUP_COUNT	=  1
*GONIO		=  MiniFlex 300/600, 150
*ATTACHMENT	=  ASC-6
*ASC		=  0, 0, 0.000000, 0.000000
*FILTER		=  None
*C_MONOCHRO	=  None, 0.000000
*SLIT_NAME	=  0, IHS
*SLIT_NAME	=  1, DS +
*SLIT_NAME	=  2, SS
*SLIT_NAME	=  3, RS
*COUNTER	=  SC-70, 0
*POS_FORMAT	=  0
*SCAN_AXIS	=  2theta/theta
*MEAS_MODE	=  Continuous Scanning
*TARGET		=  29
*XRAY_CHAR	=  K-ALPHA
*WAVE_LENGTH1	=  1.54059
*WAVE_LENGTH2	=  1.54441
*THICKNESS	=  0, 0.000000
*MU		=  0, 0.000000
*SCAN_MODE	=  2theta/theta
*SPEED_DIM	=  sec./step
*XUNIT		=  deg.
*YUNIT		=  counts
*SCALE_MODE	=  1
*REP_COUNT	=  0
*SE_COUNT	=  0
*STD_MATERIAL	=  Unknown, Unknown, 0.000000, 0.000000, 0.000000, 0.000000, 0.000000, 0.000000
*LATT_CONS	=  0, Unknown, Unknown, 0.000000, 0.000000, 0.000000, 0.000000, 0.000000, 0.000000
*SEC_COUNT	=  1
*TSPEC_SIZE	=  0
*EXTRA_SIZE	=  0
*MEMO		=

*BEGIN
*GROUP		=  0
*START		=  10
*STOP		=  90
*STEP		=  0.02
*OFFSET		=  0.000000
*SPEED		=  0.6
*SLIT_SPEC	=  0, 10.0mm, 10, 0.000000
*SLIT_SPEC	=  1, 1.250deg, 1.25, 0.000000
*SLIT_SPEC	=  2, 13.0mm(Open), 13, 0.000000
*SLIT_SPEC	=  3, 13.0mm, 13, 0.000000
*KV		=  40
*MA		=  15
*LOW		=  0.000000
*HIGH		=  0.000000
*CTEMPER	=  0, 0.000000
*CTEMPER	=  1, 0.000000
*CTEMPER	=  2, 0.000000
*PAREX		=  0, 0.000000
*PAREX		=  1, 0.000000
*PAREX		=  2, 0.000000
*PAREX		=  3, 0.000000
*PAREX		=  4, 0.000000
*PAREX		=  5, 0.000000
*PAREX		=  6, 0.000000
*PAREX		=  7, 0.000000
*PAREX		=  8, 0.000000
*PAREX		=  9, 0.000000
*PAREX		=  10, 0.000000
*PAREX		=  11, 0.000000
*PAREX		=  12, 0.000000
*PAREX		=  13, 0.000000
*PAREX		=  14, 0.000000
*PAREX		=  15, 0.000000
*FULL_SCALE	=  1434
*INDEX		=  0, 0, 0
*COUNT		=  4001
869, 839, 832, 962
877, 833, 912, 877
848, 870, 881, 819
858, 800, 884, 780
958, 879, 855, 956
893, 823, 885, 926
899, 842, 810, 830
931, 852, 859, 917
796, 922, 782, 860
806, 876, 837, 845
834, 845, 843, 833
845, 895, 812, 817
826, 865, 802, 853
882, 815, 850, 805
841, 846, 824, 801
805, 787, 775, 782
748, 786, 859, 876
849, 756, 791, 840
803, 822, 818, 797
820, 792, 817, 764
782, 824, 797, 839
881, 802, 790, 831
833, 799, 832, 823
785, 818, 793, 823
772, 805, 762, 773
843, 756, 784, 827
808, 773, 699, 786
804, 774, 809, 755
744, 761, 798, 748
805, 725, 817, 736
760, 753, 792, 773
814, 750, 793, 731
757, 703, 784, 732
805, 721, 764, 683
762, 762, 789, 776
709, 731, 742, 722
718, 706, 754, 711
699, 713, 799, 695
766, 703, 672, 763
722, 757, 752, 734
720, 685, 755, 749
700, 726, 711, 714
724, 761, 739, 710
753, 712, 707, 647
635, 703, 712, 722
718, 746, 707, 690
689, 740, 704, 686
647, 731, 686, 665
700, 752, 700, 672
653, 728, 696, 649
660, 718, 697, 721
698, 600, 688, 672
728, 635, 616, 709
703, 694, 688, 673
673, 649, 652, 711
710, 641, 668, 686
685, 705, 634, 677
699, 695, 692, 621
690, 659, 701, 620
626, 655, 668, 592
669, 615, 667, 637
594, 671, 629, 642
621, 639, 671, 634
640, 639, 690, 655
622, 613, 677, 677
639, 658, 563, 660
642, 624, 599, 618
666, 616, 633, 652
598, 609, 596, 621
654, 607, 614, 563
594, 680, 607, 564
604, 587, 603, 609
617, 620, 590, 635
653, 592, 656, 582
591, 646, 596, 617
618, 620, 590, 561
605, 613, 595, 573
597, 605, 576, 596
602, 617, 616, 588
566, 603, 578, 565
616, 633, 554, 587
620, 606, 581, 590
577, 602, 620, 619
569, 617, 599, 568
543, 573, 568, 623
559, 578, 554, 565
579, 559, 549, 624
549, 607, 562, 543
541, 582, 589, 556
570, 556, 522, 591
581, 552, 559, 590
523, 543, 538, 554
575, 525, 599, 542
576, 558, 526, 602
564, 541, 591, 564
541, 536, 548, 555
557, 543, 533, 545
544, 537, 542, 568
545, 545, 572, 587
600, 554, 563, 540
565, 518, 568, 566
601, 507, 544, 548
567, 561, 550, 550
555, 539, 571, 554
559, 550, 568, 546
533, 576, 524, 565
536, 572, 540, 542
592, 533, 604, 638
601, 606, 634, 594
598, 598, 604, 573
616, 561, 521, 540
539, 537, 590, 540
552, 507, 565, 538
565, 542, 514, 545
535, 510, 536, 500
547, 535, 555, 582
508, 517, 558, 563
530, 529, 532, 503
528, 524, 523, 571
524, 521, 528, 527
542, 501, 526, 553
523, 500, 518, 517
493, 507, 565, 562
491, 526, 551, 506
517, 513, 503, 562
551, 549, 530, 564
526, 485, 495, 520
562, 536, 530, 526
514, 553, 530, 510
532, 527, 556, 536
498, 538, 535, 512
536, 485, 520, 520
530, 498, 508, 497
563, 549, 496, 550
494, 511, 519, 549
507, 546, 551, 529
532, 544, 521, 540
562, 521, 520, 524
530, 511, 524, 508
519, 521, 561, 520
566, 558, 569, 564
564, 572, 561, 546
533, 531, 529, 554
537, 560, 490, 482
521, 549, 541, 530
533, 525, 529, 497
571, 537, 548, 542
551, 546, 489, 533
515, 527, 551, 492
494, 500, 547, 512
560, 553, 540, 568
509, 548, 516, 552
485, 497, 529, 506
518, 508, 530, 548
495, 558, 523, 493
579, 490, 527, 543
535, 546, 502, 514
548, 534, 555, 512
487, 541, 561, 526
509, 504, 556, 541
523, 532, 491, 501
561, 514, 561, 555
535, 517, 530, 540
536, 543, 563, 558
510, 532, 535, 525
488, 506, 485, 534
534, 534, 484, 533
580, 555, 570, 536
507, 587, 514, 526
501, 534, 510, 529
553, 501, 513, 544
543, 543, 537, 591
507, 524, 563, 500
505, 531, 510, 518
524, 510, 496, 521
545, 531, 537, 554
519, 539, 526, 518
548, 543, 500, 539
537, 536, 549, 534
486, 513, 583, 518
555, 552, 534, 519
530, 514, 551, 505
547, 574, 566, 532
524, 531, 526, 547
530, 554, 566, 548
555, 512, 528, 588
510, 505, 512, 531
539, 504, 540, 527
517, 530, 541, 565
525, 480, 512, 578
501, 493, 544, 528
568, 557, 526, 494
539, 532, 553, 534
592, 531, 524, 541
564, 514, 545, 528
543, 549, 560, 549
562, 558, 532, 491
588, 537, 531, 534
532, 525, 563, 541
533, 498, 528, 556
554, 521, 493, 533
535, 501, 499, 542
506, 513, 533, 531
560, 515, 543, 560
536, 532, 572, 552
562, 498, 519, 559
497, 510, 523, 534
516, 495, 489, 547
548, 562, 572, 545
557, 545, 539, 533
526, 542, 547, 561
560, 559, 531, 522
601, 561, 507, 519
566, 518, 544, 560
542, 538, 569, 535
514, 527, 535, 540
533, 539, 522, 559
598, 514, 545, 569
556, 578, 568, 543
524, 507, 558, 550
575, 517, 573, 513
517, 530, 549, 527
492, 521, 521, 505
544, 537, 508, 529
507, 549, 588, 489
561, 569, 506, 525
498, 541, 508, 539
509, 539, 518, 517
547, 527, 544, 547
518, 542, 536, 507
539, 519, 531, 548
535, 569, 505, 544
542, 497, 510, 506
534, 522, 504, 540
523, 539, 527, 550
487, 542, 554, 577
531, 548, 554, 561
528, 510, 549, 547
503, 527, 528, 548
531, 482, 553, 547
520, 545, 502, 519
538, 568, 555, 558
540, 527, 514, 503
513, 566, 542, 544
593, 534, 541, 558
542, 543, 514, 546
560, 565, 537, 537
530, 548, 579, 550
531, 581, 546, 577
547, 509, 546, 516
529, 543, 516, 532
537, 534, 546, 535
531, 510, 529, 562
595, 596, 607, 616
594, 585, 581, 631
579, 725, 702, 692
672, 724, 777, 714
678, 637, 630, 576
593, 585, 585, 564
567, 521, 563, 550
555, 532, 533, 508
517, 533, 509, 538
544, 517, 575, 553
558, 524, 521, 560
574, 527, 541, 560
491, 492, 532, 550
563, 528, 529, 548
524, 558, 517, 539
576, 521, 530, 526
536, 538, 548, 560
521, 578, 562, 512
509, 511, 492, 528
554, 498, 503, 545
548, 519, 512, 517
499, 530, 564, 542
598, 577, 542, 580
554, 548, 543, 555
511, 504, 538, 565
524, 531, 564, 516
568, 552, 495, 531
530, 591, 544, 516
563, 535, 534, 510
600, 566, 530, 525
553, 531, 544, 565
523, 572, 552, 553
542, 530, 513, 531
542, 588, 553, 522
533, 537, 525, 548
525, 559, 563, 560
559, 518, 548, 586
568, 521, 563, 538
526, 543, 512, 546
534, 522, 551, 462
542, 522, 607, 536
537, 533, 558, 525
546, 527, 523, 510
527, 537, 520, 537
537, 544, 595, 562
558, 509, 544, 497
545, 535, 542, 579
569, 545, 536, 525
556, 546, 501, 480
564, 555, 528, 530
561, 536, 519, 548
550, 528, 524, 551
521, 519, 531, 543
510, 491, 544, 542
522, 538, 527, 542
540, 595, 545, 527
533, 523, 497, 551
524, 534, 568, 529
552, 555, 514, 516
593, 555, 546, 581
603, 540, 518, 527
560, 538, 503, 569
549, 563, 559, 552
587, 592, 530, 511
580, 582, 600, 599
570, 587, 534, 592
646, 616, 646, 684
716, 738, 733, 782
815, 875, 940, 1041
1093, 1087, 1145, 1195
1176, 1164, 1064, 1100
1017, 917, 756, 845
769, 654, 747, 732
704, 623, 657, 608
607, 620, 571, 624
646, 589, 617, 588
571, 557, 579, 544
549, 542, 547, 557
526, 558, 545, 512
545, 557, 584, 580
578, 581, 546, 539
532, 556, 565, 592
518, 559, 581, 576
539, 545, 573, 576
537, 577, 586, 578
514, 531, 495, 589
562, 572, 596, 514
539, 556, 557, 564
596, 557, 585, 537
545, 594, 576, 564
540, 594, 533, 537
551, 553, 567, 556
543, 575, 616, 583
536, 543, 568, 588
567, 507, 551, 538
538, 541, 577, 532
567, 542, 538, 525
520, 539, 472, 519
529, 523, 540, 587
522, 535, 562, 534
578, 538, 527, 547
563, 544, 563, 557
540, 521, 587, 515
545, 555, 520, 504
540, 565, 569, 518
522, 538, 518, 534
519, 526, 565, 528
563, 536, 567, 542
577, 491, 520, 520
552, 551, 534, 579
531, 531, 533, 542
520, 530, 553, 543
509, 502, 553, 571
543, 518, 551, 539
570, 587, 566, 562
516, 542, 531, 542
588, 517, 589, 541
555, 478, 552, 590
558, 544, 526, 568
524, 540, 502, 512
513, 549, 550, 572
516, 524, 523, 529
537, 545, 547, 540
561, 556, 561, 508
545, 559, 501, 499
526, 507, 582, 541
563, 546, 531, 542
552, 563, 562, 547
559, 549, 569, 550
580, 564, 525, 531
534, 553, 573, 545
519, 554, 545, 533
558, 517, 531, 545
553, 548, 487, 541
526, 596, 565, 526
513, 564, 546, 542
562, 569, 488, 543
593, 544, 560, 573
529, 569, 521, 527
573, 542, 530, 543
530, 499, 509, 513
502, 510, 578, 586
610, 503, 533, 520
551, 559, 601, 515
566, 512, 520, 516
578, 560, 529, 536
567, 516, 569, 542
542, 557, 531, 522
577, 565, 541, 536
548, 492, 563, 563
523, 559, 568, 553
533, 542, 525, 526
533, 545, 546, 581
537, 552, 532, 560
560, 556, 527, 570
571, 523, 572, 562
539, 582, 558, 522
607, 606, 572, 592
513, 537, 532, 533
540, 529, 543, 530
548, 570, 541, 580
576, 559, 541, 564
573, 550, 609, 591
610, 642, 618, 642
627, 695, 684, 614
702, 670, 665, 661
619, 609, 625, 649
625, 644, 582, 595
554, 552, 568, 564
584, 573, 531, 554
555, 552, 541, 531
558, 587, 564, 550
545, 598, 590, 551
574, 576, 510, 509
541, 542, 534, 558
564, 591, 571, 557
541, 517, 539, 560
522, 570, 570, 532
584, 534, 557, 544
551, 557, 572, 547
514, 531, 538, 556
566, 509, 547, 562
565, 553, 544, 529
518, 534, 515, 541
562, 574, 545, 570
559, 566, 544, 518
577, 556, 504, 576
518, 551, 544, 536
574, 569, 543, 527
540, 526, 551, 563
581, 570, 517, 540
544, 529, 570, 582
499, 536, 536, 512
542, 557, 553, 533
522, 535, 522, 539
523, 570, 527, 537
557, 562, 560, 532
521, 580, 582, 567
545, 586, 519, 577
547, 557, 577, 550
560, 569, 559, 519
541, 566, 533, 531
546, 497, 494, 559
531, 552, 534, 495
553, 503, 564, 546
576, 542, 529, 535
555, 564, 541, 548
556, 548, 577, 562
529, 547, 542, 516
533, 566, 503, 581
539, 556, 544, 517
552, 542, 541, 555
550, 552, 546, 564
577, 553, 563, 593
557, 558, 556, 556
569, 538, 599, 578
529, 520, 622, 546
499, 514, 517, 504
546, 509, 544, 549
576, 522, 538, 505
577, 549, 537, 548
516, 549, 540, 548
550, 553, 561, 529
535, 543, 548, 560
580, 506, 571, 540
547, 577, 547, 539
548, 524, 569, 531
580, 558, 545, 542
528, 586, 539, 546
559, 526, 544, 498
553, 524, 513, 575
513, 490, 559, 535
523, 545, 520, 581
537, 524, 540, 565
510, 511, 547, 572
581, 534, 545, 536
574, 517, 538, 534
529, 524, 525, 574
556, 537, 545, 544
513, 611, 520, 523
524, 556, 616, 528
557, 531, 528, 596
561, 553, 573, 541
555, 560, 520, 541
562, 555, 522, 561
551, 543, 544, 574
493, 531, 552, 568
541, 527, 545, 547
530, 586, 571, 569
523, 565, 598, 549
636, 569, 539, 575
550, 549, 501, 534
516, 515, 550, 524
558, 533, 538, 542
535, 562, 558, 549
577, 578, 521, 563
517, 555, 564, 541
548, 521, 539, 561
562, 523, 568, 517
562, 535, 558, 546
537, 590, 520, 527
563, 536, 557, 581
570, 544, 542, 534
557, 544, 546, 585
542, 538, 577, 540
548, 564, 586, 557
535, 519, 537, 554
565, 538, 546, 560
561, 559, 575, 522
553, 560, 530, 553
569, 566, 568, 548
547, 595, 517, 538
548, 521, 535, 551
526, 558, 568, 523
582, 581, 541, 553
525, 527, 566, 551
539, 546, 547, 556
552, 561, 539, 557
521, 535, 534, 548
558, 527, 549, 518
529, 568, 552, 509
557, 522, 534, 523
541, 542, 565, 526
501, 551, 552, 476
555, 532, 529, 566
512, 572, 499, 502
533, 530, 558, 554
548, 564, 529, 526
575, 542, 520, 565
598, 534, 565, 512
568, 586, 583, 540
570, 571, 576, 508
574, 571, 583, 586
554, 588, 594, 622
637, 633, 597, 582
590, 560, 582, 565
556, 542, 561, 617
600, 568, 580, 580
582, 521, 565, 576
544, 603, 520, 574
531, 571, 546, 531
549, 550, 591, 551
530, 550, 563, 541
539, 517, 510, 534
543, 563, 571, 531
556, 550, 562, 574
520, 592, 512, 547
567, 536, 558, 575
536, 574, 530, 548
560, 538, 565, 506
517, 573, 520, 526
560, 522, 562, 514
536, 539, 561, 527
563, 571, 551, 522
544, 546, 517, 522
567, 544, 586, 577
551, 512, 555, 553
562, 566, 523, 529
526, 538, 534, 596
527, 559, 552, 550
511, 534, 530, 586
497, 524, 583, 582
585, 591, 544, 596
537, 588, 612, 552
580, 530, 533, 551
555, 577, 549, 515
588, 551, 561, 575
552, 509, 587, 544
563, 543, 570, 584
544, 567, 603, 547
556, 542, 536, 538
541, 537, 535, 546
554, 564, 551, 545
582, 564, 593, 564
553, 568, 556, 603
624, 634, 580, 605
601, 608, 638, 670
637, 706, 670, 689
706, 685, 733, 681
689, 682, 701, 669
692, 655, 636, 647
653, 620, 579, 578
627, 622, 565, 624
528, 576, 588, 614
557, 545, 529, 571
564, 557, 572, 527
548, 558, 584, 530
550, 565, 587, 564
522, 534, 527, 529
563, 518, 592, 563
533, 545, 537, 521
562, 551, 504, 605
583, 556, 526, 524
574, 548, 572, 524
525, 552, 605, 598
563, 569, 575, 579
555, 543, 507, 556
565, 590, 557, 539
552, 561, 513, 564
536, 550, 529, 560
552, 517, 548, 545
583, 558, 569, 547
491, 552, 559, 539
533, 541, 558, 554
560, 541, 547, 527
528, 530, 560, 571
563, 526, 558, 567
521, 571, 562, 506
537, 546, 514, 575
529, 533, 536, 554
535, 507, 565, 542
543, 529, 545, 565
554, 540, 569, 582
552, 600, 529, 550
531, 530, 588, 586
515, 533, 588, 524
541, 492, 575, 566
530, 543, 530, 564
551, 540, 502, 598
571, 531, 586, 592
565, 558, 545, 531
543, 555, 512, 603
565, 507, 567, 541
561, 545, 539, 578
539, 518, 544, 546
538, 550, 538, 538
567, 492, 516, 540
542, 603, 554, 541
535, 568, 544, 561
590, 543, 589, 529
538, 543, 599, 598
560, 529, 577, 552
586, 558, 555, 557
555, 561, 519, 616
541, 557, 541, 543
563, 549, 576, 523
547, 538, 535, 556
582, 545, 555, 538
575, 572, 509, 574
546, 557, 599, 586
554, 550, 573, 521
583, 643, 581, 548
571, 523, 588, 588
553, 568, 604, 562
607, 574, 620, 608
592, 619, 614, 641
664, 640, 693, 658
715, 688, 741, 699
736, 687, 723, 733
696, 687, 662, 679
679, 687, 651, 642
668, 609, 673, 591
557, 574, 570, 557
577, 614, 616, 616
597, 586, 549, 585
559, 566, 558, 565
573, 565, 575, 530
535, 530, 553, 552
526, 567, 562, 612
511, 569, 529, 586
583, 562, 561, 557
545, 522, 541, 557
586, 525, 578, 558
587, 545, 558, 512
575, 579, 547, 561
532, 548, 577, 547
572, 556, 539, 539
563, 562, 540, 539
564, 550, 590, 503
558, 550, 556, 579
583, 558, 572, 575
573, 551, 569, 533
581, 530, 562, 549
546, 566, 572, 557
512, 521, 549, 528
500, 538, 559, 570
521, 528, 535, 550
553, 524, 562, 591
547, 592, 535, 530
540, 563, 578, 539
532, 555, 536, 556
576, 500, 547, 580
522, 514, 524, 550
568, 548, 562, 564
558, 517, 538, 539
524, 561, 582, 538
567, 543, 563, 582
574, 543, 558, 574
586, 537, 550, 560
570, 557, 592, 542
565, 566, 542, 547
560, 571, 494, 535
547, 569, 551, 522
531, 543, 586, 541
533, 591, 554, 553
533, 539, 564, 583
584, 542, 532, 534
568, 546, 592, 564
584, 550, 572, 568
529, 573, 574, 498
567, 630, 551, 551
561, 569, 564, 561
560, 560, 569, 576
590, 615, 591, 575
556, 611, 572, 534
581, 519, 555, 548
573, 567, 532, 542
563, 533, 541, 523
515, 565, 560, 543
558, 544, 585, 537
522, 498, 594, 594
560, 543, 562, 608
526, 518, 556, 564
564, 547, 516, 547
515, 500, 537, 580
553, 555, 515, 551
541, 561, 540, 551
566, 497, 546, 506
491, 539, 540, 522
531, 546, 565, 564
546, 581, 546, 593
538, 533, 553, 566
538, 545, 550, 571
543, 546, 542, 544
565, 557, 524, 542
535, 532, 539, 523
544, 547, 543, 542
548, 543, 555, 581
539, 525, 558, 552
584, 594, 568, 498
592, 525, 560, 588
577, 583, 543, 531
543, 589, 559, 557
600, 563, 543, 521
547, 545, 591, 565
553, 509, 535, 523
520, 533, 519, 556
567, 578, 574, 533
537, 580, 577, 536
532, 539, 521, 528
540, 555, 561, 500
561, 528, 547, 544
564, 491, 580, 503
531, 547, 538, 552
578, 561, 550, 522
551, 569, 572, 543
538, 540, 539, 583
522, 554, 531, 515
590, 539, 575, 514
549, 588, 554, 534
586, 548, 565, 590
579, 571, 545, 557
552, 538, 545, 546
499, 602, 637, 591
546, 570, 540, 572
562, 569, 527, 601
591, 556, 535, 604
575, 551, 556, 556
563, 628, 540, 559
521, 534, 523, 525
555, 503, 546, 550
561, 582, 508, 568
559, 548, 528, 550
530, 528, 537, 569
580, 543, 556, 563
549, 565, 541, 547
565, 560, 556, 549
563, 561, 515, 540
535, 580, 525, 556
555, 545, 568, 528
541, 508, 566, 580
566, 592, 521, 596
570, 557, 565, 521
562, 532, 516, 518
576, 556, 607, 556
568, 581, 549, 550
539, 529, 511, 511
499, 593, 572, 565
550, 551, 576, 552
566, 503, 531, 576
555, 578, 522, 565
572, 542, 609, 590
549, 544, 527, 569
598, 511, 550, 594
545, 524, 545, 541
545, 532, 576, 534
517, 555, 566, 537
514, 554, 585, 549
533, 549, 539, 549
574, 583, 542, 578
546, 578, 579, 595
572, 569, 591, 567
566, 571, 570, 559
610, 559, 585, 599
557, 589, 581, 562
530, 559, 554, 543
572, 544, 560, 574
568, 538, 605, 558
552, 567, 591, 526
604, 572, 571, 529
607, 562, 559, 554
593, 574, 568, 573
580, 604, 571, 557
570, 561, 583, 573
550, 574, 524, 599
575, 580, 516, 515
526, 581, 529, 531
610, 544, 530, 579
564, 525, 557, 559
566, 576, 550, 556
555, 571, 519, 576
544, 526, 557, 533
577, 546, 552, 566
588, 541, 532, 582
545, 534, 539, 565
595, 578, 571, 602
542, 586, 568, 554
532, 572, 515, 552
555, 544, 601, 506
527, 544, 587, 595
548, 596, 633, 549
532, 579, 606, 512
595, 529, 556, 537
555, 572, 557, 569
517, 547, 590, 590
569, 581, 619, 570
533, 541, 522, 550
532, 562, 539, 593
589, 551, 546, 577
544, 539, 573, 533
529, 562, 520, 595
571, 549, 563, 564
581, 545, 538, 562
549, 569, 526, 546
571, 530, 571, 580
548, 513, 587, 492
544, 557, 575, 528
563, 523, 544, 548
594, 544, 555, 577
533, 562, 534, 592
516, 540, 557, 543
530, 542, 560, 558
582, 509, 531, 569
563, 545, 547, 555
605, 579, 566, 512
578, 526, 544, 558
563, 597, 569, 581
534, 531, 543, 553
520, 540, 569, 536
565, 516, 555, 554
605, 556, 562, 543
571, 564, 566, 569
518, 530, 539, 549
534, 550, 564, 559
579, 571, 547, 494
553, 572, 540, 570
501, 529, 580, 504
539, 550, 562, 500
602, 565, 565, 511
519, 575, 501, 538
560, 517, 534, 539
554, 516, 533, 585
567, 539, 545, 541
584, 548, 577, 566
546, 564, 555, 567
540, 556, 492, 553
495, 547, 518, 543
575, 540, 533, 547
567, 569, 518, 573
545, 572, 578, 527
556, 541, 547, 584
531, 561, 572, 549
571, 527, 535, 479
536, 584, 515, 544
574, 572, 581, 541
537, 525, 557, 547
546, 552, 543, 542
525, 540, 487, 566
577, 542, 519, 527
524, 539, 542, 528
556, 558, 548, 556
595, 507, 558, 580
524, 567, 558, 549
562, 536, 548, 540
552, 554, 537, 555
544, 553, 547, 567
507, 554, 592, 562
549, 579, 603, 522
538, 590, 560, 583
580, 575, 538, 557
575, 510, 529, 554
555, 566, 595, 578
591, 569, 521, 545
553, 540, 522, 554
573, 514, 567, 530
539, 605, 535, 542
614, 525, 551, 554
569, 550, 508, 570
563, 589, 571, 555
547, 559, 551, 549
544, 536, 569, 563
553, 539, 543, 537
528, 532, 534, 556
534, 582, 520, 530
598, 557, 516, 514
585, 591, 587, 575
532, 545, 554, 509
569, 518, 564, 554
579, 559, 559, 548
534, 544, 601, 524
561, 641, 550, 557
550, 534, 595, 532
568, 596, 547, 535
492, 591, 541, 525
554, 585, 572, 559
576, 548, 496, 595
527, 535, 580, 543
488, 505, 528, 530
536, 549, 535, 564
534, 538, 554, 541
548, 534, 512, 531
553, 555, 578, 523
533, 541, 548, 527
532, 552, 568, 564
577, 564, 558, 486
544, 573, 546, 523
573, 598, 558, 550
573, 547, 560, 537
562, 550, 589, 557
575, 549, 531, 535
565, 549, 558, 531
525, 580, 575, 554
564, 539, 550, 542
585, 557, 544, 573
545, 513, 552, 576
526, 598, 560, 541
534, 574, 603, 576
546, 559, 535, 559
589, 552, 549, 539
502, 612, 545, 563
544, 605, 548, 588
549, 550, 530, 510
565, 579, 557, 550
584, 571, 541, 526
599, 568, 549, 561
564, 517, 539, 555
548, 605, 498, 555
538, 530, 567, 532
555, 576, 551, 561
514, 553, 558, 562
565, 551, 542, 588
539, 549, 559, 573
581, 550, 556, 547
485, 527, 576, 531
566, 584, 533, 546
534, 548, 609, 535
521, 543, 534, 559
557, 545, 571, 569
526, 548, 577, 522
599, 510, 546, 508
506, 540, 580, 550
567, 552, 598, 539
565, 566, 592, 546
548, 547, 538, 517
535, 550, 529, 547
584, 545, 542, 549
529, 550, 585, 570
543, 560, 564, 547
553, 511, 564, 562
533, 519, 573, 562
543, 563, 555, 574
534, 560, 523, 501
591, 616, 522, 548
576, 524, 557, 538
564, 493, 550, 543
570, 573, 494, 557
526, 511, 563, 584
556, 568, 567, 604
524, 594, 544, 607
581, 576, 531, 561
566, 555, 517, 549
568, 534, 607, 550
557, 529, 541, 599
589, 563, 620, 618
559, 628, 601, 620
558, 606, 611, 557
577, 607, 593, 552
565
*END

*EOF