File: XRD_source_data/Mars_Theta_2-Theta.asc
*TYPE		=  Raw
*CLASS		=  ASCII CLASS
*SAMPLE		=  Mars
*COMMENT	=
*FNAME		=  Mars_Theta_2-Theta.asc
*DATE		=  07-Mar-24 15:18

*GROUP_COUNT	=  1
*GONIO		=  MiniFlex 300/600, 150
*ATTACHMENT	=  ASC-6
*ASC		=  0, 0, 0.000000, 0.000000
*FILTER		=  None
*C_MONOCHRO	=  None, 0.000000
*SLIT_NAME	=  0, IHS
*SLIT_NAME	=  1, DS +
*SLIT_NAME	=  2, SS
*SLIT_NAME	=  3, RS
*COUNTER	=  SC-70, 0
*POS_FORMAT	=  0
*SCAN_AXIS	=  2theta/theta
*MEAS_MODE	=  Continuous Scanning
*TARGET		=  29
*XRAY_CHAR	=  K-ALPHA
*WAVE_LENGTH1	=  1.54059
*WAVE_LENGTH2	=  1.54441
*THICKNESS	=  0, 0.000000
*MU		=  0, 0.000000
*SCAN_MODE	=  2theta/theta
*SPEED_DIM	=  sec./step
*XUNIT		=  deg.
*YUNIT		=  counts
*SCALE_MODE	=  1
*REP_COUNT	=  0
*SE_COUNT	=  0
*STD_MATERIAL	=  Unknown, Unknown, 0.000000, 0.000000, 0.000000, 0.000000, 0.000000, 0.000000
*LATT_CONS	=  0, Unknown, Unknown, 0.000000, 0.000000, 0.000000, 0.000000, 0.000000, 0.000000
*SEC_COUNT	=  1
*TSPEC_SIZE	=  0
*EXTRA_SIZE	=  0
*MEMO		=

*BEGIN
*GROUP		=  0
*START		=  10
*STOP		=  90
*STEP		=  0.02
*OFFSET		=  0.000000
*SPEED		=  0.6
*SLIT_SPEC	=  0, 10.0mm, 10, 0.000000
*SLIT_SPEC	=  1, 1.250deg, 1.25, 0.000000
*SLIT_SPEC	=  2, 13.0mm(Open), 13, 0.000000
*SLIT_SPEC	=  3, 13.0mm, 13, 0.000000
*KV		=  40
*MA		=  15
*LOW		=  0.000000
*HIGH		=  0.000000
*CTEMPER	=  0, 0.000000
*CTEMPER	=  1, 0.000000
*CTEMPER	=  2, 0.000000
*PAREX		=  0, 0.000000
*PAREX		=  1, 0.000000
*PAREX		=  2, 0.000000
*PAREX		=  3, 0.000000
*PAREX		=  4, 0.000000
*PAREX		=  5, 0.000000
*PAREX		=  6, 0.000000
*PAREX		=  7, 0.000000
*PAREX		=  8, 0.000000
*PAREX		=  9, 0.000000
*PAREX		=  10, 0.000000
*PAREX		=  11, 0.000000
*PAREX		=  12, 0.000000
*PAREX		=  13, 0.000000
*PAREX		=  14, 0.000000
*PAREX		=  15, 0.000000
*FULL_SCALE	=  2031.6
*INDEX		=  0, 0, 0
*COUNT		=  4001
327, 381, 343, 346
352, 339, 329, 332
351, 354, 332, 377
327, 341, 324, 356
317, 383, 337, 321
331, 323, 337, 399
310, 342, 354, 362
319, 350, 339, 327
351, 337, 366, 362
345, 326, 330, 288
325, 330, 340, 294
332, 326, 300, 366
362, 341, 352, 316
325, 323, 339, 349
363, 295, 298, 324
377, 257, 299, 296
282, 346, 329, 330
318, 317, 313, 318
333, 289, 324, 320
328, 322, 294, 296
316, 275, 308, 359
279, 315, 305, 320
321, 330, 293, 318
316, 304, 329, 283
369, 288, 325, 333
305, 294, 311, 274
345, 309, 292, 265
320, 279, 302, 285
293, 322, 303, 283
302, 362, 331, 347
354, 313, 283, 332
307, 302, 365, 340
346, 311, 330, 291
311, 331, 335, 278
326, 357, 320, 291
292, 263, 291, 257
312, 312, 264, 295
277, 288, 269, 303
287, 244, 257, 290
275, 249, 263, 233
262, 289, 293, 277
263, 269, 270, 310
262, 292, 283, 286
287, 267, 265, 276
263, 286, 272, 262
274, 245, 254, 241
259, 276, 255, 308
246, 259, 279, 260
281, 261, 286, 260
254, 270, 280, 276
291, 255, 297, 248
267, 283, 231, 229
272, 273, 248, 245
243, 248, 239, 249
248, 232, 254, 256
256, 254, 233, 254
239, 249, 217, 251
261, 244, 242, 228
224, 255, 255, 278
205, 236, 236, 227
244, 259, 240, 239
252, 231, 218, 233
277, 247, 222, 237
253, 245, 237, 226
251, 270, 237, 285
269, 240, 232, 218
218, 270, 230, 247
208, 235, 236, 236
238, 224, 249, 199
227, 202, 244, 243
215, 216, 214, 230
193, 215, 241, 237
200, 215, 223, 238
222, 233, 202, 207
264, 209, 188, 233
233, 240, 216, 257
210, 220, 234, 252
231, 201, 203, 214
180, 233, 193, 252
201, 229, 218, 238
195, 217, 194, 216
218, 199, 213, 183
229, 225, 204, 211
212, 183, 213, 217
223, 195, 189, 170
220, 197, 224, 188
228, 205, 206, 223
220, 214, 177, 221
214, 196, 208, 203
194, 183, 226, 229
214, 193, 221, 217
217, 206, 200, 210
218, 201, 210, 210
210, 186, 176, 196
174, 191, 202, 196
196, 195, 186, 203
183, 170, 206, 185
204, 207, 191, 227
186, 205, 203, 209
216, 224, 212, 216
206, 216, 189, 194
200, 199, 180, 194
195, 213, 229, 196
182, 201, 169, 208
175, 192, 159, 211
208, 194, 166, 203
181, 191, 202, 184
182, 199, 186, 223
185, 187, 203, 212
211, 174, 198, 169
190, 207, 238, 197
201, 207, 173, 208
170, 199, 197, 168
191, 184, 193, 167
179, 159, 166, 184
170, 162, 183, 180
181, 192, 198, 203
199, 190, 166, 196
193, 188, 191, 201
181, 191, 186, 189
198, 204, 197, 208
182, 216, 192, 179
192, 185, 176, 169
191, 225, 217, 217
192, 212, 198, 207
208, 213, 212, 230
186, 202, 194, 203
211, 191, 181, 204
200, 208, 199, 187
195, 208, 200, 168
187, 189, 204, 218
191, 178, 207, 196
196, 177, 210, 205
216, 192, 215, 179
195, 197, 195, 216
235, 215, 226, 270
362, 433, 483, 519
617, 619, 591, 525
474, 469, 377, 316
251, 248, 241, 255
235, 225, 217, 244
200, 223, 198, 215
217, 171, 192, 209
214, 216, 214, 190
226, 186, 193, 205
211, 198, 189, 201
241, 190, 201, 208
182, 216, 205, 186
170, 181, 186, 213
203, 187, 195, 212
200, 187, 204, 203
208, 189, 220, 184
201, 183, 203, 204
223, 174, 200, 199
196, 172, 193, 190
174, 204, 173, 201
187, 182, 185, 218
183, 205, 203, 175
188, 210, 193, 176
190, 205, 212, 184
188, 191, 187, 190
164, 194, 195, 184
185, 198, 204, 162
194, 170, 179, 187
200, 165, 180, 180
201, 213, 183, 182
178, 178, 179, 205
178, 165, 167, 193
182, 202, 192, 168
212, 183, 181, 207
176, 195, 220, 217
197, 213, 205, 195
214, 206, 200, 166
211, 204, 198, 173
192, 196, 196, 194
198, 180, 205, 165
223, 207, 224, 226
210, 189, 212, 195
208, 201, 196, 183
204, 183, 193, 195
180, 202, 177, 213
193, 202, 207, 216
166, 185, 179, 205
188, 172, 196, 169
206, 186, 215, 221
212, 218, 230, 222
212, 177, 212, 210
172, 193, 198, 206
232, 235, 223, 174
220, 208, 207, 193
200, 185, 204, 187
225, 197, 191, 196
200, 205, 187, 197
195, 181, 162, 192
166, 174, 224, 203
200, 159, 177, 184
185, 197, 198, 199
182, 231, 205, 222
173, 194, 201, 202
185, 169, 187, 203
216, 179, 182, 230
209, 190, 168, 211
200, 186, 178, 196
226, 200, 216, 190
225, 200, 181, 224
215, 206, 209, 240
201, 244, 234, 253
237, 255, 299, 352
407, 528, 775, 1041
1325, 1507, 1638, 1693
1500, 1316, 1034, 815
658, 557, 451, 395
416, 400, 430, 411
403, 363, 286, 252
242, 220, 183, 209
240, 221, 215, 209
194, 194, 205, 211
190, 202, 226, 210
196, 203, 208, 206
213, 216, 200, 212
237, 223, 238, 269
279, 298, 290, 268
262, 284, 243, 238
234, 210, 226, 208
195, 185, 215, 202
197, 218, 200, 239
213, 222, 219, 210
213, 178, 188, 201
207, 170, 162, 195
206, 196, 194, 187
208, 203, 199, 166
179, 209, 205, 200
188, 196, 171, 189
210, 164, 183, 185
188, 181, 184, 190
164, 180, 173, 189
189, 178, 175, 187
195, 183, 184, 194
187, 177, 190, 171
203, 167, 154, 200
180, 180, 166, 183
194, 190, 202, 155
192, 193, 191, 187
163, 191, 221, 175
195, 196, 196, 222
210, 204, 221, 183
191, 179, 192, 195
182, 180, 193, 195
163, 195, 185, 202
187, 196, 219, 203
198, 200, 176, 198
207, 190, 188, 172
165, 196, 179, 182
217, 180, 188, 195
178, 198, 196, 199
167, 166, 199, 197
161, 172, 187, 174
196, 175, 182, 183
191, 171, 179, 175
184, 182, 173, 184
150, 176, 175, 177
195, 176, 193, 174
180, 158, 182, 158
171, 176, 184, 172
172, 179, 179, 188
173, 187, 171, 166
190, 185, 195, 158
200, 178, 198, 181
169, 179, 182, 169
204, 183, 170, 175
169, 198, 171, 164
167, 157, 202, 148
176, 172, 168, 170
176, 185, 172, 177
199, 172, 144, 188
200, 175, 164, 173
168, 191, 205, 185
194, 178, 177, 178
167, 175, 183, 193
178, 195, 198, 179
205, 179, 164, 205
183, 198, 204, 177
176, 184, 177, 190
188, 173, 188, 194
168, 199, 165, 210
176, 185, 171, 171
201, 201, 207, 196
210, 176, 204, 210
183, 185, 184, 193
171, 181, 206, 208
179, 183, 180, 202
191, 205, 173, 193
188, 204, 200, 216
204, 171, 165, 186
202, 190, 170, 158
182, 198, 169, 200
170, 171, 178, 194
187, 187, 168, 198
192, 178, 180, 197
176, 198, 178, 198
190, 185, 168, 200
181, 174, 179, 183
172, 177, 191, 167
205, 161, 210, 176
199, 179, 174, 197
185, 212, 169, 181
190, 168, 194, 199
185, 195, 218, 178
170, 171, 199, 186
188, 205, 194, 200
188, 196, 214, 208
203, 198, 204, 192
187, 197, 201, 170
212, 196, 197, 209
195, 190, 192, 201
202, 229, 229, 230
195, 196, 231, 222
232, 239, 246, 212
235, 265, 229, 239
221, 241, 229, 205
225, 204, 209, 197
226, 218, 203, 223
208, 230, 214, 216
222, 225, 216, 222
201, 201, 219, 219
225, 201, 192, 204
193, 205, 188, 209
200, 220, 187, 184
192, 196, 194, 199
227, 198, 200, 173
205, 184, 189, 216
183, 202, 200, 200
222, 254, 252, 283
308, 328, 338, 323
295, 269, 263, 224
232, 244, 192, 188
219, 192, 204, 179
219, 186, 207, 183
196, 164, 207, 188
177, 185, 210, 174
176, 201, 193, 182
211, 193, 233, 194
174, 191, 183, 202
177, 207, 181, 189
178, 176, 187, 181
164, 173, 214, 186
170, 176, 154, 160
180, 190, 162, 194
177, 174, 191, 183
192, 177, 171, 153
157, 183, 177, 178
176, 158, 171, 157
176, 188, 165, 188
167, 163, 177, 171
170, 156, 220, 158
180, 167, 158, 162
179, 171, 192, 181
183, 190, 170, 189
191, 196, 159, 182
165, 180, 172, 186
173, 204, 171, 177
174, 178, 167, 165
170, 166, 169, 172
188, 179, 192, 186
170, 178, 162, 202
178, 185, 169, 174
146, 183, 185, 181
167, 180, 195, 171
171, 191, 193, 236
219, 243, 218, 239
242, 242, 222, 219
216, 201, 185, 161
177, 178, 180, 163
181, 186, 159, 178
149, 169, 185, 171
174, 171, 212, 179
208, 154, 179, 185
172, 186, 159, 145
176, 189, 171, 180
176, 186, 182, 205
192, 203, 225, 183
221, 206, 201, 192
178, 170, 163, 169
157, 190, 200, 171
166, 175, 195, 167
197, 182, 163, 196
189, 205, 199, 185
180, 168, 174, 185
180, 176, 191, 171
194, 170, 187, 168
167, 197, 171, 188
192, 169, 194, 185
193, 163, 185, 184
175, 179, 163, 170
147, 173, 186, 169
189, 173, 157, 177
171, 186, 176, 180
172, 173, 193, 196
203, 185, 181, 178
194, 143, 166, 181
168, 169, 194, 150
159, 172, 156, 170
169, 176, 168, 167
184, 188, 158, 162
154, 157, 179, 172
162, 170, 170, 197
202, 204, 235, 206
205, 228, 219, 208
200, 208, 201, 218
201, 197, 196, 183
166, 168, 172, 154
186, 168, 183, 163
169, 178, 176, 163
143, 172, 168, 181
162, 148, 172, 172
186, 174, 144, 177
163, 168, 176, 173
170, 151, 174, 167
184, 161, 159, 177
172, 183, 186, 177
176, 158, 165, 160
169, 182, 176, 164
157, 175, 161, 172
169, 167, 150, 161
150, 187, 160, 176
176, 165, 168, 174
208, 178, 185, 172
180, 177, 140, 184
155, 173, 170, 158
172, 165, 188, 181
149, 175, 172, 168
163, 165, 187, 166
190, 142, 167, 162
168, 156, 154, 155
158, 144, 185, 172
156, 150, 151, 173
165, 186, 160, 165
193, 170, 162, 183
169, 152, 160, 144
169, 170, 179, 167
149, 157, 150, 181
179, 153, 140, 173
187, 154, 169, 168
181, 156, 174, 169
160, 169, 186, 167
170, 176, 170, 188
188, 170, 181, 214
181, 200, 170, 218
212, 219, 213, 191
219, 227, 224, 179
198, 225, 204, 178
173, 183, 173, 203
160, 164, 170, 165
190, 150, 159, 150
164, 192, 214, 189
170, 163, 179, 171
140, 178, 164, 166
183, 133, 159, 169
169, 148, 146, 176
174, 149, 154, 168
153, 173, 163, 154
163, 176, 157, 152
163, 179, 169, 177
158, 178, 184, 143
176, 174, 171, 154
156, 175, 187, 156
183, 165, 173, 160
150, 151, 164, 140
174, 179, 168, 167
215, 192, 177, 167
163, 174, 160, 175
188, 177, 156, 181
164, 184, 170, 171
176, 165, 173, 162
162, 152, 177, 168
164, 173, 189, 177
177, 184, 177, 168
186, 189, 167, 183
179, 160, 180, 175
168, 171, 156, 152
160, 171, 187, 163
170, 160, 191, 151
167, 163, 161, 191
166, 159, 181, 164
187, 159, 165, 178
175, 168, 170, 179
161, 186, 154, 169
190, 161, 166, 172
172, 156, 180, 166
167, 152, 161, 188
172, 168, 174, 161
178, 188, 166, 169
146, 177, 158, 168
154, 141, 173, 165
159, 164, 150, 186
163, 187, 166, 196
176, 175, 197, 172
179, 179, 165, 172
158, 170, 160, 168
178, 161, 186, 189
182, 142, 169, 165
218, 199, 215, 241
263, 322, 336, 325
340, 312, 295, 301
276, 285, 277, 248
243, 223, 201, 187
153, 197, 215, 183
175, 175, 193, 160
175, 178, 195, 207
197, 197, 201, 225
232, 226, 200, 220
200, 202, 191, 217
202, 194, 179, 149
172, 181, 166, 159
162, 162, 167, 187
174, 169, 180, 163
176, 168, 168, 164
158, 186, 177, 172
145, 168, 171, 161
153, 175, 165, 175
175, 165, 166, 150
179, 175, 151, 153
155, 160, 170, 149
138, 138, 172, 164
169, 138, 148, 158
158, 154, 171, 180
148, 163, 169, 171
167, 144, 133, 162
164, 165, 160, 169
184, 167, 183, 150
162, 164, 164, 179
157, 155, 177, 155
165, 161, 158, 161
159, 186, 180, 156
158, 171, 176, 171
161, 176, 148, 155
192, 144, 179, 189
163, 163, 160, 153
169, 156, 166, 175
144, 157, 175, 162
158, 186, 177, 198
191, 174, 159, 192
170, 194, 178, 169
174, 187, 175, 175
170, 176, 171, 166
169, 183, 189, 190
157, 187, 152, 174
166, 186, 161, 176
176, 154, 183, 185
170, 175, 200, 141
180, 166, 160, 191
157, 176, 176, 185
172, 192, 176, 191
172, 166, 185, 168
161, 180, 178, 186
174, 164, 180, 170
163, 171, 166, 172
188, 179, 159, 180
167, 170, 198, 183
148, 186, 163, 165
155, 182, 170, 186
185, 169, 238, 205
228, 217, 215, 193
221, 180, 216, 193
203, 208, 162, 203
172, 179, 170, 157
161, 178, 164, 179
148, 183, 195, 179
189, 173, 187, 172
170, 164, 187, 181
169, 191, 172, 155
162, 166, 160, 155
177, 133, 175, 157
185, 172, 165, 157
181, 130, 161, 170
164, 193, 180, 170
149, 170, 179, 154
166, 154, 175, 148
148, 149, 160, 172
185, 182, 180, 168
164, 166, 165, 137
180, 138, 162, 171
165, 168, 172, 161
179, 156, 170, 173
154, 165, 143, 154
171, 176, 157, 158
171, 191, 151, 172
180, 186, 160, 156
166, 186, 171, 163
152, 165, 183, 173
184, 154, 177, 169
167, 169, 179, 193
173, 154, 153, 174
145, 167, 161, 164
195, 185, 167, 151
129, 168, 157, 163
164, 165, 154, 186
165, 163, 162, 173
168, 142, 162, 154
170, 164, 153, 147
166, 176, 160, 151
169, 177, 171, 168
177, 151, 172, 196
143, 168, 181, 161
161, 152, 155, 167
181, 172, 148, 166
194, 159, 164, 165
149, 147, 185, 160
192, 174, 165, 170
153, 186, 155, 189
153, 148, 140, 181
149, 157, 176, 169
176, 185, 177, 187
199, 157, 151, 153
162, 164, 166, 179
171, 176, 164, 155
163, 173, 183, 139
143, 177, 158, 156
166, 174, 171, 161
141, 170, 174, 166
170, 177, 143, 173
156, 153, 166, 156
170, 174, 191, 192
178, 160, 164, 178
175, 191, 206, 228
211, 217, 224, 244
203, 200, 223, 198
205, 197, 191, 170
203, 183, 180, 174
158, 147, 160, 167
168, 167, 169, 164
140, 155, 153, 155
139, 158, 170, 158
170, 169, 150, 158
152, 195, 156, 148
136, 141, 182, 159
162, 139, 169, 163
146, 164, 146, 171
170, 161, 167, 173
179, 164, 156, 159
153, 181, 139, 156
142, 179, 165, 182
191, 171, 163, 160
156, 169, 161, 172
165, 190, 153, 168
164, 168, 163, 153
185, 169, 192, 180
166, 169, 150, 187
168, 175, 153, 190
179, 167, 155, 158
176, 154, 172, 158
180, 142, 168, 186
171, 154, 179, 180
170, 159, 185, 177
159, 168, 177, 163
166, 164, 180, 168
162, 144, 146, 151
165, 165, 182, 164
153, 186, 197, 146
163, 171, 173, 162
162, 154, 176, 179
152, 163, 169, 148
162, 173, 179, 166
175, 183, 133, 179
148, 193, 184, 158
170, 167, 183, 155
146, 152, 175, 186
150, 165, 172, 169
180, 180, 169, 167
157, 195, 169, 149
144, 176, 174, 178
170, 189, 185, 148
181, 153, 184, 197
161, 152, 166, 154
166, 186, 167, 191
170, 185, 181, 165
190, 186, 182, 170
187, 180, 178, 200
171, 149, 167, 180
203, 159, 201, 180
166, 151, 185, 163
160, 149, 171, 167
155, 163, 159, 155
183, 170, 167, 161
163, 151, 169, 160
163, 165, 165, 181
160, 167, 177, 153
151, 149, 161, 179
172, 163, 152, 136
143, 160, 147, 153
166, 155, 152, 163
146, 142, 166, 174
168, 167, 169, 148
138, 188, 166, 142
145, 182, 159, 143
144, 153, 168, 174
183, 154, 137, 151
155, 166, 171, 182
191, 160, 167, 152
165, 143, 154, 162
148, 174, 184, 186
131, 162, 152, 155
150, 172, 169, 154
155, 167, 170, 171
165, 166, 172, 163
143, 152, 169, 153
174, 158, 171, 162
158, 140, 164, 144
155, 137, 153, 160
164, 163, 144, 134
148, 138, 177, 153
140, 133, 159, 162
152, 156, 155, 148
164, 148, 160, 148
166, 162, 164, 153
149, 147, 165, 186
166, 149, 155, 161
166, 164, 174, 175
158, 178, 178, 143
149, 164, 162, 160
170, 179, 190, 162
165, 182, 172, 186
202, 202, 217, 227
176, 187, 186, 175
182, 173, 194, 225
191, 223, 180, 187
170, 199, 188, 202
205, 219, 228, 246
242, 252, 233, 222
231, 226, 228, 248
224, 228, 230, 233
218, 248, 200, 158
170, 185, 201, 176
187, 180, 153, 177
168, 189, 175, 150
178, 150, 164, 135
146, 158, 165, 159
154, 174, 150, 177
176, 147, 170, 165
146, 162, 163, 147
154, 186, 166, 153
142, 188, 168, 160
162, 147, 173, 177
154, 157, 168, 143
183, 170, 156, 140
171, 141, 132, 158
156, 157, 169, 150
171, 172, 140, 141
155, 150, 189, 163
196, 143, 163, 171
164, 142, 150, 153
160, 144, 151, 168
152, 188, 152, 173
157, 151, 153, 142
151, 181, 158, 146
153, 143, 149, 176
165, 146, 138, 142
154, 135, 186, 157
164, 143, 158, 155
143, 139, 163, 171
134, 128, 167, 162
164, 171, 151, 172
155, 173, 172, 163
142, 147, 155, 142
173, 148, 151, 167
167, 153, 161, 189
165, 154, 165, 155
155, 146, 137, 155
157, 164, 135, 164
137, 149, 157, 129
176, 159, 159, 175
151, 166, 151, 166
135, 162, 137, 147
169, 159, 157, 159
158, 154, 138, 168
179, 143, 167, 178
179, 166, 171, 161
159, 181, 165, 163
149, 160, 158, 142
143, 141, 153, 161
174, 149, 159, 173
167, 168, 140, 148
148, 147, 150, 158
147, 157, 153, 144
184, 160, 182, 140
151, 158, 145, 155
185, 171, 183, 155
136, 153, 159, 145
161, 159, 142, 162
175, 179, 174, 179
150, 140, 167, 155
161, 147, 173, 180
185, 155, 144, 162
164, 160, 163, 144
168, 170, 137, 189
164, 138, 121, 172
174, 151, 164, 172
173, 160, 176, 146
189, 171, 165, 162
142, 161, 155, 170
152, 151, 176, 171
151, 155, 167, 170
152, 140, 166, 174
145, 176, 175, 148
150, 161, 177, 164
136, 146, 162, 181
157, 163, 161, 152
150, 170, 169, 159
127, 167, 164, 169
145, 157, 158, 148
171, 153, 161, 175
148, 152, 165, 175
163, 157, 168, 175
143, 146, 168, 168
146, 149, 163, 170
152, 161, 156, 163
161, 157, 153, 164
162, 171, 158, 148
160, 161, 158, 162
147, 138, 152, 161
147, 183, 156, 167
173, 161, 153, 168
168, 178, 169, 161
140, 162, 162, 149
184, 178, 165, 162
149, 144, 149, 157
147, 140, 158, 166
163, 163, 143, 153
151, 178, 137, 151
150, 148, 146, 140
163, 171, 183, 153
166, 140, 177, 144
165, 161, 150, 156
156, 136, 161, 153
171, 144, 151, 148
125, 154, 166, 149
174, 146, 170, 134
157, 154, 149, 140
158, 169, 134, 126
147, 149, 175, 156
155, 152, 156, 148
163, 152, 142, 143
141, 139, 166, 160
163, 141, 142, 153
162, 147, 145, 173
160, 162, 163, 150
211, 168, 205, 164
168, 190, 164, 156
167, 154, 155, 165
160, 176, 183, 165
156, 181, 160, 170
151, 156, 125, 158
163, 135, 161, 142
148, 171, 161, 140
145, 132, 142, 168
171, 173, 167, 149
164, 164, 168, 163
162, 148, 139, 157
143, 152, 134, 185
154, 158, 141, 157
175, 142, 168, 145
166, 148, 141, 150
167, 146, 160, 145
145, 158, 146, 140
183, 158, 143, 150
150, 151, 147, 152
141, 150, 159, 160
142, 154, 153, 168
155, 137, 153, 150
167, 137, 151, 133
138, 182, 161, 188
144, 153, 157, 167
163, 153, 168, 146
162, 159, 170, 186
178, 159, 187, 174
155, 190, 171, 150
154, 155, 151, 188
173, 170, 148, 192
165, 157, 161, 149
162, 169, 169, 169
152, 163, 170, 147
152, 147, 171, 171
151, 148, 156, 150
152, 160, 161, 154
137, 149, 161, 160
160, 161, 162, 161
172, 145, 150, 162
160, 138, 159, 144
150, 135, 156, 197
158, 187, 158, 165
182, 207, 169, 208
184, 175, 151, 166
141, 160, 159, 193
154, 162, 188, 182
188, 165, 172, 181
167, 154, 160, 158
135, 146, 165, 161
150, 150, 147, 168
167, 165, 155, 142
165, 152, 172, 170
176, 160, 161, 138
151, 134, 165, 163
155, 168, 143, 150
175, 144, 155, 135
135, 156, 165, 139
156, 157, 161, 149
128, 138, 143, 128
173, 155, 164, 150
166, 140, 152, 161
157, 137, 136, 135
159, 145, 149, 157
158, 161, 144, 166
134, 166, 156, 165
152, 145, 128, 176
131, 157, 159, 170
157, 147, 133, 146
144, 153, 140, 134
155, 150, 135, 138
159, 157, 151, 152
140, 140, 171, 155
171, 159, 176, 166
148, 176, 162, 153
141, 139, 155, 151
151, 164, 174, 140
170, 173, 187, 156
164, 161, 160, 138
161, 143, 154, 168
152, 158, 171, 159
166, 141, 151, 160
150, 150, 148, 145
144, 144, 142, 155
146, 140, 177, 142
155, 184, 149, 149
144, 152, 156, 172
163, 147, 175, 145
167, 152, 142, 156
146, 136, 159, 125
165, 150, 141, 147
148, 166, 157, 131
147, 138, 161, 150
168, 175, 141, 159
150, 127, 152, 170
153, 132, 136, 156
145, 145, 143, 149
131, 154, 161, 146
157, 148, 164, 137
140, 139, 149, 157
148, 168, 152, 162
146, 136, 140, 132
160, 137, 150, 146
148, 140, 140, 140
139, 138, 168, 149
155, 154, 160, 144
141, 171, 169, 141
133, 135, 163, 147
155, 161, 139, 178
146, 180, 168, 147
155, 160, 136, 156
155, 156, 133, 163
139, 147, 134, 133
135, 145, 148, 146
167, 166, 173, 145
151, 165, 133, 152
154, 156, 131, 168
174, 152, 146, 166
172, 156, 162, 152
114, 147, 149, 155
153, 166, 167, 157
135, 167, 162, 147
165, 122, 136, 139
137, 162, 141, 160
141, 161, 139, 135
149, 149, 173, 154
131, 152, 167, 117
163, 156, 146, 161
146, 158, 145, 139
153, 128, 152, 125
167, 147, 143, 148
156, 144, 160, 155
132, 149, 144, 148
153, 142, 148, 153
140, 151, 143, 157
149, 156, 137, 143
136, 157, 166, 143
145, 141, 150, 155
168, 153, 160, 143
156, 151, 134, 140
151, 134, 142, 139
133, 172, 140, 144
135, 142, 169, 144
159, 161, 151, 144
144, 151, 143, 142
145, 137, 160, 139
158, 158, 148, 161
155, 144, 129, 134
137, 139, 127, 153
149, 174, 130, 157
157, 135, 146, 157
148, 158, 142, 133
164, 155, 143, 147
155
*END

*EOF